{
	"resourceType": "Bundle",
	"type": "transaction",
	"entry": [
		{
			"fullUrl": "urn:uuid:647515ed-0d5e-4c99-b23d-073fbc593f76",
			"resource": {
				"resourceType": "Patient",
				"id": "647515ed-0d5e-4c99-b23d-073fbc593f76",
				"meta": {
					"profile": [
						"http://hl7.org/fhir/uv/phenomics-exchange/StructureDefinition/Individual"
					]
				},
				"identifier": [
					{
						"use": "usual",
						"type": {
							"coding": [
								{
									"system": "http://terminology.hl7.org/CodeSystem/v2-0203",
									"code": "MR",
									"display": "Medical Record Number"
								}
							]
						},
						"system": "http://hospital.example.org",
						"value": "m123"
					}
				],
				"name": [
					{
						"family": "Anyperson",
						"given": ["Anyname", "A."]
					}
				],
				"gender": "male",
				"birthDate": "2017-01-20",
				"address": [
					{
						"line": ["123 Any St"],
						"city": "Anytown",
						"postalCode": "12345",
						"country": "US"
					}
				],
				"telecom": [
					{ "system": "phone", "value": "777-444-2222", "use": "home" },
					{ "system": "email", "value": "anyname.anyperson@example.com" }
				],
				"communication": [
					{
						"language": {
							"coding": [
								{
									"system": "urn:ietf:bcp:47",
									"code": "en-US",
									"display": "English (United States)"
								}
							],
							"text": "English"
						}
					}
				]
			},
			"request": {
				"method": "POST",
				"url": "Patient"
			}
		},
		{
			"fullUrl": "urn:uuid:fa8cf5a0-6e2d-4f48-a3f2-b0c5320d4d1e",
			"resource": {
				"resourceType": "Condition",
				"id": "fa8cf5a0-6e2d-4f48-a3f2-b0c5320d4d1e",
				"meta": {
					"profile": [
						"http://hl7.org/fhir/uv/phenomics-exchange/StructureDefinition/Disease"
					]
				},
				"clinicalStatus": {
					"coding": [
						{
							"system": "http://terminology.hl7.org/CodeSystem/condition-clinical",
							"code": "active"
						}
					]
				},
				"code": {
					"coding": [
						{
							"system": "http://purl.obolibrary.org/obo/mondo.owl",
							"code": "0001071",
							"display": "Intellectual disability"
						}
					]
				},
				"subject": {
					"reference": "urn:uuid:647515ed-0d5e-4c99-b23d-073fbc593f76"
				}
			},
			"request": {
				"method": "POST",
				"url": "Condition"
			}
		},
		{
			"fullUrl": "urn:uuid:8c1a2b3c-4d5e-6f7a-8b9c-0d1e2f3a4b5c",
			"resource": {
				"resourceType": "Organization",
				"id": "8c1a2b3c-4d5e-6f7a-8b9c-0d1e2f3a4b5c",
				"name": "Example Lab"
			},
			"request": {
				"method": "POST",
				"url": "Organization"
			}
		},
		{
			"fullUrl": "urn:uuid:1a2b3c4d-5e6f-7a8b-9c0d-1e2f3a4b5c6d",
			"resource": {
				"resourceType": "Composition",
				"id": "1a2b3c4d-5e6f-7a8b-9c0d-1e2f3a4b5c6d",
				"meta": {
					"profile": [
						"http://hl7.org/fhir/uv/phenomics-exchange/StructureDefinition/Phenopacket"
					]
				},
				"identifier": {
					"system": "http://phenofhir.github.io",
					"value": "composition"
				},
				"status": "preliminary",
				"type": {
					"coding": [
						{
							"system": "http://loinc.org",
							"code": "11503-0",
							"display": "Medical records"
						}
					]
				},
				"subject": {
					"reference": "urn:uuid:647515ed-0d5e-4c99-b23d-073fbc593f76"
				},
				"date": "2025-05-24",
				"title": "Phenopacket for Proband UUID",
				"author": [
					{
						"reference": "urn:uuid:8c1a2b3c-4d5e-6f7a-8b9c-0d1e2f3a4b5c"
					}
				],
				"section": [
					{
						"code": {
							"coding": [
								{
									"system": "http://hl7.org/fhir/uv/phenomics-exchange/CodeSystem/section-type",
									"code": "diseases"
								}
							]
						},
						"entry": [
							{
								"reference": "urn:uuid:fa8cf5a0-6e2d-4f48-a3f2-b0c5320d4d1e",
								"display": "Intellectual disability"
							}
						]
					}
				]
			},
			"request": {
				"method": "POST",
				"url": "Composition"
			}
		}
	]
}
